time(s),accelX(m/s^2),accelY(m/s^2),accelZ(m/s^2),accelMagnitude(m/s^2),gyroX(deg/s),gyroY(deg/s),gyroZ(deg/s),magX(uT),magY(uT),magZ(uT),magMagnitude(uT)
0.117000,-0.057966,1.060685,-0.003012,1.062272,0.084154,-0.002899,-0.028458,-13.767815,-15.609912,15.208056,25.778034
0.343000,-0.078917,0.947554,-0.064665,0.953031,-0.137102,-0.048676,-1.104219,-3.158677,-17.106005,16.947155,24.285772
0.478000,-0.030432,1.079840,-0.019173,1.080439,-0.190509,0.019989,0.047837,7.450460,-16.892279,16.367456,24.672901
0.612000,-0.041206,1.025968,-0.059278,1.028505,-0.037919,-0.048676,-0.074235,11.428887,-16.144232,16.512381,25.766537
0.746000,-0.072332,1.071460,0.023326,1.074152,0.068894,0.157321,-0.013199,8.776603,-16.999142,18.251478,26.440802
0.880000,-0.051981,1.028961,0.051459,1.031557,0.076524,0.256504,0.002060,4.798176,-17.319733,17.237005,24.902008
1.014000,-0.042403,1.030158,0.055051,1.032499,0.213855,0.019989,0.009689,-1.832535,-17.640326,16.802231,24.430601
1.237000,-0.052579,1.051108,-0.058680,1.054057,0.000229,0.035248,-0.058976,-4.484819,-17.426598,15.642832,23.843199
1.371000,-0.098071,1.028362,-0.028750,1.033428,-0.114214,-0.079194,-0.120012,-7.137104,-16.357960,16.802231,24.511957
1.504000,-0.083107,1.006214,-0.011392,1.009705,-0.022660,0.004730,0.040208,0.819749,-15.716776,16.802231,23.021814
1.638000,-0.105254,1.058890,-0.014385,1.064205,-0.007401,0.027619,0.032578,6.124318,-15.930504,17.381929,24.360207
1.772000,-0.071135,1.084629,-0.128714,1.094553,-0.083696,-0.056306,-0.051347,8.776603,-16.785416,15.932681,24.751348
1.906000,-0.023249,1.112163,-0.143079,1.121570,-0.266804,-0.086824,0.055467,7.450460,-16.892279,16.947155,25.061214
2.134000,-0.036418,1.122339,-0.087411,1.126327,-0.098955,0.065766,0.024949,2.145892,-15.609912,16.077606,22.511412
2.268000,-0.051981,1.031355,-0.064665,1.034687,-0.159991,-0.292821,-0.158160,6.124318,-16.357960,15.932681,23.641920
2.402000,-0.098071,1.043925,0.055051,1.049966,0.053635,0.073396,0.085985,3.472034,-16.785416,16.802231,24.002504
2.536000,0.014462,1.131917,-0.059278,1.133560,-0.121843,-0.102083,0.101244,4.798176,-16.037367,16.947155,23.820700
2.670000,-0.062157,1.056495,-0.110756,1.064102,-0.152361,0.050507,-0.074235,8.776603,-15.930504,17.092079,24.958944
2.803000,-0.091487,1.064875,0.056847,1.070309,0.068894,0.180209,-0.097124,10.102745,-16.037367,16.657305,25.233479
3.030000,-0.090888,1.029559,-0.111953,1.039609,-0.282063,-0.254673,-0.028458,6.124318,-16.357960,17.092079,24.438276
3.164000,-0.116627,1.037939,0.085578,1.047971,-0.022660,0.058137,0.223316,0.819749,-15.930504,15.932681,22.545582
3.298000,0.036011,1.059488,0.020333,1.060295,-0.022660,0.035248,-0.051347,10.102745,-15.182458,16.077606,24.311764
3.432000,-0.046593,1.058291,-0.120333,1.066129,-0.037919,0.195468,-0.165789,-0.506393,-16.037367,16.367456,22.920454
3.566000,-0.058565,1.088819,-0.064067,1.092273,-0.114214,-0.330968,-0.043717,6.124318,-14.434410,15.642832,22.148537
3.700000,-0.136979,1.000229,0.040685,1.010384,-0.068437,0.287022,-0.058976,-5.810961,-16.251095,17.237005,24.392206
3.926000,-0.051981,1.097797,0.102339,1.103782,0.007858,-0.048676,0.009689,6.124318,-14.648138,15.642832,22.288414
4.060000,0.031821,1.046319,0.074804,1.049473,0.084154,0.477760,-0.295491,0.819749,-14.861866,15.932681,21.803610
4.194000,-0.137578,1.055897,-0.031743,1.065295,0.099413,-0.361486,-0.104753,-1.832535,-14.648138,15.642832,21.508703
4.328000,-0.239935,0.955335,0.014946,0.985118,-0.144732,0.302281,0.116503,-0.506393,-16.251095,15.497906,22.461960
4.462000,0.085693,1.068467,0.000580,1.071898,0.168078,-0.056306,0.185168,-7.137104,-15.289322,16.222530,23.406668
4.596000,-0.190851,1.018785,-0.002413,1.036510,-0.076066,-0.041047,0.208057,-1.832535,-15.503048,16.222530,22.513844
4.822000,0.035412,1.009207,0.099346,1.014704,0.023117,-0.239414,-0.036088,8.776603,-15.289322,15.063131,23.188145
4.956000,-0.176486,1.019982,0.008362,1.035172,-0.060807,-0.010529,0.047837,4.798176,-15.609912,16.657305,23.327187
5.090000,0.070728,1.118748,0.017340,1.121115,-0.022660,0.157321,0.208057,-7.137104,-15.075594,15.932681,23.066471
5.224000,-0.167507,1.013397,0.041882,1.028002,-0.129473,-0.102083,-0.013199,-1.832535,-15.075594,14.773282,21.186825
5.358000,-0.081311,1.084030,0.034699,1.087629,0.114672,0.348058,0.116503,-4.484819,-15.503048,15.642832,22.475681
5.492000,-0.061558,1.053502,-0.080827,1.058390,-0.091325,-0.063935,0.230945,-3.158677,-15.823640,15.497906,22.372972
5.719000,-0.085501,1.009207,-0.043715,1.013766,-0.121843,-0.048676,-0.127642,6.124318,-14.648138,15.063131,21.885454
5.853000,-0.113036,1.037341,-0.094594,1.047760,0.053635,0.081025,0.009689,-5.810961,-15.396184,15.208056,22.407471
5.987000,-0.063354,1.096002,-0.120932,1.104472,-0.068437,-0.124971,0.208057,0.819749,-15.075594,14.193583,20.722048
6.121000,-0.065149,1.081037,-0.164628,1.095440,-0.251545,-0.079194,-0.089494,-1.832535,-14.861866,15.352981,21.446381
6.255000,0.044989,1.125332,-0.117939,1.132390,-0.182879,-0.063935,-0.051347,-3.158677,-14.541274,15.208056,21.277004
6.388000,-0.074727,1.066671,-0.107165,1.074642,-0.251545,-0.155489,-0.074235,-8.463245,-16.251095,15.497906,23.998117
6.522000,-0.001101,1.046918,-0.006603,1.046939,0.015488,-0.109712,0.009689,-5.810961,-14.755002,15.208056,21.971853
6.748000,-0.007686,1.093009,-0.049701,1.094165,-0.053178,-0.018158,0.055467,2.145892,-15.396184,15.497906,21.950682
6.883000,-0.074128,1.049911,-0.088609,1.056248,-0.121843,-0.109712,-0.020829,-9.789388,-14.861866,14.193583,22.763237
7.017000,-0.097473,1.029559,-0.016180,1.034289,0.015488,0.149691,0.085985,-4.484819,-15.289322,14.773282,21.728479
7.152000,-0.044199,1.099593,-0.099383,1.104960,0.030747,0.111543,0.108873,-11.115530,-14.541274,15.497906,23.983093
7.286000,-0.063952,0.986461,-0.019173,0.988718,0.129931,0.058137,-0.005570,0.819749,-15.289322,13.903733,20.682096
7.420000,-0.026242,1.126529,-0.128115,1.134095,-0.129473,-0.079194,0.085985,0.819749,-14.648138,14.773282,20.820417
7.645000,-0.141169,1.067270,-0.094594,1.080714,0.007858,0.195468,-0.005570,-0.506393,-14.755002,15.497906,21.404476
7.779000,-0.007087,1.016390,-0.079630,1.019530,-0.114214,-0.033417,-0.043717,0.819749,-15.289322,13.903733,20.682096
7.913000,-0.129796,1.008010,-0.018575,1.016502,0.015488,-0.170748,0.101244,0.819749,-15.289322,14.483432,21.076174
8.047000,-0.075325,1.005616,0.044276,1.009405,-0.083696,0.081025,0.047837,-8.463245,-16.037367,16.367456,24.427797
8.181000,-0.008883,1.072058,0.001179,1.072096,0.084154,-0.018158,0.047837,-5.810961,-15.182458,15.497906,22.460173
8.315000,-0.087297,1.059488,-0.074243,1.065668,-0.144732,-0.079194,-0.043717,-1.832535,-15.930504,15.352981,22.200296
8.541000,0.015060,1.016989,0.024523,1.017396,0.007858,-0.102083,-0.020829,-3.158677,-15.823640,15.208056,22.173178
8.675000,-0.121416,1.092410,-0.049102,1.100233,0.000229,0.042878,-0.089494,3.472034,-15.503048,15.352981,22.093292
8.809000,-0.013073,1.050510,-0.040722,1.051380,-0.175250,-0.010529,-0.043717,-0.506393,-14.968730,15.787757,21.761723
8.943000,-0.098071,0.961321,0.081388,0.969732,0.114672,0.103914,0.101244,0.819749,-15.075594,15.932681,21.949848
9.077000,0.009075,1.032552,-0.038328,1.033303,-0.030289,0.065766,-0.020829,-3.158677,-14.755002,15.787757,21.838970
9.211000,-0.090888,1.021778,-0.044912,1.026795,0.038376,-0.201266,-0.196307,-0.506393,-15.396184,16.367456,22.476488
9.437000,0.062348,1.093009,-0.019772,1.094964,0.099413,-0.033417,-0.036088,-7.137104,-15.503048,15.063131,22.763582
9.571000,-0.167507,1.046918,-0.082623,1.063448,-0.083696,0.172580,-0.028458,-4.484819,-15.075594,14.483432,21.381227
9.705000,0.140164,1.109769,0.017340,1.118720,-0.022660,0.004730,-0.097124,2.145892,-15.182458,15.787757,22.008297
9.839000,-0.166908,1.018186,-0.098186,1.036437,0.053635,-0.140230,0.162280,3.472034,-14.220682,14.773282,20.797421
9.973000,-0.001700,1.109170,-0.065264,1.111090,-0.060807,0.058137,-0.142901,8.776603,-14.861866,15.063131,22.908552
10.107000,-0.025045,1.030158,-0.051497,1.031748,0.061265,-0.292821,-0.074235,3.472034,-14.648138,15.063131,21.296030
10.333000,0.042595,1.011003,0.029910,1.012342,0.091783,0.081025,0.185168,2.145892,-15.396184,14.918206,21.545307
10.467000,-0.081311,1.096002,-0.007202,1.099037,0.023117,-0.063935,0.078355,6.124318,-15.289322,15.642832,22.714947
10.601000,0.028229,1.053502,-0.033539,1.054414,-0.022660,0.058137,-0.058976,-0.506393,-15.182458,14.048657,20.691259
10.735000,-0.047192,1.052305,-0.046109,1.054372,-0.022660,-0.002899,-0.074235,-3.158677,-15.396184,15.497906,22.072716
10.869000,-0.063952,1.081037,0.169380,1.096093,-0.068437,0.065766,0.063096,-8.463245,-15.823640,16.077606,24.093641
11.003000,-0.129796,1.001426,0.044875,1.010799,0.099413,0.065766,0.200427,-7.137104,-15.716776,16.222530,23.688093
11.230000,-0.074128,1.004419,-0.058680,1.008858,0.038376,-0.071565,-0.036088,-7.137104,-14.861866,15.642832,22.726889
11.364000,-0.099269,1.049911,-0.072447,1.057079,-0.068437,0.103914,0.047837,-9.789388,-14.006954,15.642832,23.167328
11.498000,-0.048988,1.022975,-0.024560,1.024442,-0.007401,-0.018158,0.085985,-11.115530,-15.823640,16.367456,25.334486
11.633000,-0.083107,1.061883,-0.036532,1.065756,-0.022660,0.081025,0.047837,-16.420099,-14.755002,14.628357,26.482420
11.768000,-0.047192,1.054101,-0.005406,1.055171,0.007858,-0.063935,0.002060,-15.093956,-14.861866,16.222530,26.680948
11.902000,-0.041805,1.031954,0.047269,1.033881,-0.015030,0.081025,-0.020829,-20.398525,-15.075594,15.932681,29.953693
12.128000,-0.069938,1.048714,0.107127,1.056489,-0.175250,-0.102083,-0.051347,-37.638374,-13.900090,16.367456,43.333054
12.263000,0.020448,1.081037,0.050262,1.082398,-0.037919,0.081025,-0.013199,19.385740,19.762018,-19.718830,33.987888
12.397000,-0.078318,1.001426,0.047269,1.005595,-0.182879,-0.140230,-0.051347,19.385740,19.762018,-19.718830,33.987888
12.531000,-0.045995,1.226492,-0.096390,1.231134,-0.144732,0.042878,0.024949,19.385740,19.762018,-19.718830,33.987888
12.665000,-0.081910,1.003820,0.177161,1.022619,0.374075,0.088655,0.139391,19.385740,19.762018,-19.718830,33.987888
12.799000,0.030025,0.896674,0.561450,1.058373,0.503777,0.462501,0.017319,19.385740,19.762018,-19.718830,33.987888
13.024000,-0.037016,1.115755,0.244801,1.142894,0.183337,0.088655,-0.074235,19.385740,19.762018,-19.718830,33.987888
13.159000,-0.146556,0.936181,0.222653,0.973390,0.091783,-0.147860,0.215686,19.385740,19.762018,-19.718830,33.987888
13.294000,-0.181274,0.993644,0.508177,1.130678,-0.457542,-0.079194,-0.028458,19.385740,19.762018,-19.718830,33.987888
13.428000,-0.189654,0.902660,0.115508,0.929573,0.007858,0.035248,-0.509117,19.385740,19.762018,-19.718830,33.987888
13.562000,0.015060,1.069664,-0.126319,1.077202,-0.556725,-0.269932,-0.249714,19.385740,19.762018,-19.718830,33.987888
13.696000,-0.005890,1.011003,0.101142,1.016067,-0.060807,-0.056306,0.002060,19.385740,19.762018,-19.718830,33.987888
13.923000,-0.004693,1.044524,-0.075440,1.047255,-0.106584,-0.231785,0.162280,19.385740,19.762018,-19.718830,33.987888
14.057000,0.044391,1.061883,0.068220,1.064997,-0.236286,0.027619,-0.043717,19.385740,19.762018,-19.718830,33.987888
14.191000,0.001892,1.097199,-0.058680,1.098768,0.099413,-0.002899,-0.203937,19.385740,19.762018,-19.718830,33.987888
14.325000,-0.066945,1.084629,-0.035933,1.087286,-0.121843,-0.048676,-0.173419,19.385740,19.762018,-19.718830,33.987888
14.459000,-0.097473,1.118149,-0.329837,1.169851,-0.434653,-0.514076,0.620050,19.385740,19.762018,-19.718830,33.987888
14.593000,0.062947,1.172022,-0.331034,1.219500,-0.015030,0.065766,0.139391,19.385740,19.762018,-19.718830,33.987888
14.820000,-0.005291,0.999032,0.077198,1.002024,-0.236286,-0.231785,-0.310750,19.385740,19.762018,-19.718830,33.987888
14.954000,-0.230956,0.947554,-0.012589,0.975375,-0.167620,-0.262303,0.078355,19.385740,19.762018,-19.718830,33.987888
15.088000,0.202416,1.131318,0.062234,1.150967,0.122301,0.012360,-0.364157,19.385740,19.762018,-19.718830,33.987888
15.222000,-0.031030,0.851781,1.176193,1.452557,1.083619,0.828717,0.398795,19.385740,19.762018,-19.718830,33.987888
15.356000,-0.002897,1.066671,-0.190966,1.083635,-0.434653,-0.269932,-0.303120,19.385740,19.762018,-19.718830,33.987888
15.491000,-0.088494,1.055298,0.172373,1.072939,-0.228656,-0.277562,0.581903,19.385740,19.762018,-19.718830,33.987888
15.716000,-0.089093,0.933188,0.607541,1.117087,0.190967,0.294652,-0.928740,19.385740,19.762018,-19.718830,33.987888
15.851000,-0.143564,1.093009,0.333990,1.151880,0.297780,0.134432,-2.302052,19.385740,19.762018,-19.718830,33.987888
15.985000,-0.196239,1.249837,-0.648282,1.421574,-0.564355,-0.468299,-3.156557,19.385740,19.762018,-19.718830,33.987888
16.118999,-0.055572,1.227091,-1.044542,1.612423,-0.793240,0.180209,-2.393606,19.385740,19.762018,-19.718830,33.987888
16.253000,-0.106452,1.210331,-0.426208,1.287589,0.168078,-0.094453,-2.576715,19.385740,19.762018,-19.718830,33.987888
16.386999,0.377800,0.954737,-0.138889,1.036120,-0.114214,-0.048676,0.208057,19.385740,19.762018,-19.718830,33.987888
16.614000,-0.125606,0.933188,0.048466,0.942849,-0.045548,0.042878,-1.218662,19.385740,19.762018,-19.718830,33.987888
16.747999,0.100657,1.134311,0.006566,1.138787,-0.434653,-0.178378,-0.547265,19.385740,19.762018,-19.718830,33.987888
16.882000,-0.126205,0.827239,1.182179,1.448378,1.091249,1.172045,0.665827,19.385740,19.762018,-19.718830,33.987888
17.016001,0.017455,1.134909,-0.136495,1.143221,-0.152361,-0.041047,-1.027924,19.385740,19.762018,-19.718830,33.987888
17.150000,0.147347,1.042728,0.189133,1.069936,0.374075,0.225986,-0.501488,19.385740,19.762018,-19.718830,33.987888
17.284000,0.024039,1.096002,-0.203536,1.115000,0.427481,0.225986,0.421683,19.385740,19.762018,-19.718830,33.987888
17.417999,-0.051382,1.188183,-0.360963,1.242865,-0.709316,-0.170748,-0.905852,19.385740,19.762018,-19.718830,33.987888
17.643000,-0.132191,0.925406,-0.170614,0.950242,0.389334,0.195468,0.307240,19.385740,19.762018,-19.718830,33.987888
17.777000,-0.190851,1.084629,-0.906869,1.426623,-0.938201,-0.712444,-0.005570,19.385740,19.762018,-19.718830,33.987888
17.912001,-0.147155,1.058890,-0.398075,1.140774,-0.205768,-0.063935,-0.272602,19.385740,19.762018,-19.718830,33.987888
18.046000,-0.025045,1.095403,-0.069454,1.097888,-0.030289,-0.361486,-0.203937,19.385740,19.762018,-19.718830,33.987888
18.180000,-0.084304,0.571046,1.169010,1.303758,0.839475,0.851606,-0.272602,19.385740,19.762018,-19.718830,33.987888
18.313999,-0.208210,1.116952,-0.439377,1.218189,-0.365988,-0.201266,-1.432288,19.385740,19.762018,-19.718830,33.987888
18.540001,0.271852,1.058890,-0.186776,1.109070,-0.098955,0.340429,-2.408865,19.385740,19.762018,-19.718830,33.987888
18.674000,-0.323138,0.903259,0.530923,1.096437,0.168078,0.142062,-1.890059,19.385740,19.762018,-19.718830,33.987888
18.808001,-0.007686,1.117551,-0.262197,1.147922,-0.610132,0.309911,-4.224689,19.385740,19.762018,-19.718830,33.987888
18.941999,0.458609,0.997236,1.029541,1.504910,-0.488060,0.019989,-3.393072,19.385740,19.762018,-19.718830,33.987888
19.076000,0.139565,1.086424,0.117902,1.101679,-0.030289,0.019989,-0.387045,19.385740,19.762018,-19.718830,33.987888
19.209999,-0.300392,0.861957,0.152021,0.925373,0.175708,0.019989,1.352483,19.385740,19.762018,-19.718830,33.987888
19.437000,-0.175887,1.013397,-0.014385,1.028648,0.061265,0.012360,0.444572,19.385740,19.762018,-19.718830,33.987888
19.570999,-0.047192,1.107375,-0.056884,1.109838,-0.053178,0.073396,0.238575,19.385740,19.762018,-19.718830,33.987888
19.705000,-0.122015,1.024770,-0.011990,1.032078,-0.091325,-0.071565,0.124132,19.385740,19.762018,-19.718830,33.987888
19.839001,-0.138775,0.959525,-0.025758,0.969851,0.099413,0.126802,0.345388,19.385740,19.762018,-19.718830,33.987888
19.973000,-0.056171,1.059488,-0.011392,1.061037,0.030747,0.004730,-0.127642,19.385740,19.762018,-19.718830,33.987888
20.107000,-0.045396,1.040334,-0.024560,1.041613,-0.076066,0.050507,-0.234455,19.385740,19.762018,-19.718830,33.987888
20.337000,-0.045995,1.073256,-0.009596,1.074284,-0.137102,0.012360,0.200427,19.385740,19.762018,-19.718830,33.987888
20.471001,-0.050784,1.070861,-0.047307,1.073108,-0.114214,-0.010529,-0.188678,19.385740,19.762018,-19.718830,33.987888
20.605000,-0.063952,1.034348,-0.123326,1.043635,-0.266804,-0.140230,0.002060,19.385740,19.762018,-19.718830,33.987888
20.739000,-0.494931,0.884703,-0.338217,1.068665,-0.694057,-0.758221,0.406424,19.385740,19.762018,-19.718830,33.987888
20.872999,0.210796,1.325857,0.107726,1.346825,-0.549096,-0.361486,-0.181048,19.385740,19.762018,-19.718830,33.987888
21.007000,-0.374017,0.809281,0.071213,0.894369,0.236744,0.065766,0.017319,19.385740,19.762018,-19.718830,33.987888
21.232000,-0.103459,0.998433,0.023925,1.004064,-0.098955,-0.140230,-0.364157,19.385740,19.762018,-19.718830,33.987888
21.365999,-0.017263,1.094805,0.016742,1.095069,0.046006,0.073396,-0.570153,19.385740,19.762018,-19.718830,33.987888
21.500000,-0.117226,0.987659,0.056248,0.996180,-0.022660,0.035248,0.047837,19.385740,19.762018,-19.718830,33.987888
21.634001,-0.139373,0.961920,0.039488,0.972766,0.114672,-0.033417,0.047837,19.385740,19.762018,-19.718830,33.987888
21.768999,-0.004094,1.068467,0.071213,1.070845,0.084154,0.225986,0.230945,19.385740,19.762018,-19.718830,33.987888
21.903999,-0.132789,1.046918,-0.035933,1.055917,0.137560,0.119173,0.093614,19.385740,19.762018,-19.718830,33.987888
22.129999,-0.120817,1.017588,0.423777,1.108904,1.007324,0.790570,-1.897688,19.385740,19.762018,-19.718830,33.987888
22.264000,0.006680,1.101987,0.041283,1.102781,0.160449,-0.086824,-1.806134,19.385740,19.762018,-19.718830,33.987888
22.398001,-0.006489,0.992447,-0.013786,0.992564,-0.167620,0.073396,-0.409934,19.385740,19.762018,-19.718830,33.987888
22.532000,-0.073530,1.150473,-0.016180,1.152933,-0.137102,-0.300450,0.063096,19.385740,19.762018,-19.718830,33.987888
22.666000,-0.142366,1.105579,-0.076038,1.117298,-0.098955,0.042878,-0.341268,19.385740,19.762018,-19.718830,33.987888
22.799999,-0.176486,1.043326,-0.044314,1.059076,-0.289693,-0.460670,-0.066606,19.385740,19.762018,-19.718830,33.987888
23.025000,0.063545,1.147480,0.017939,1.149378,0.038376,0.073396,-0.089494,19.385740,19.762018,-19.718830,33.987888
23.159000,-0.111839,0.937378,0.074205,0.946938,0.252003,0.233616,0.276722,19.385740,19.762018,-19.718830,33.987888
23.292999,0.901559,2.419464,-2.259662,3.431135,-0.625391,-0.086824,0.429313,19.385740,19.762018,-19.718830,33.987888
23.427000,0.292802,1.956162,0.961302,2.199183,0.244373,-0.193637,1.482185,19.385740,19.762018,-19.718830,33.987888
23.561001,-0.311166,0.783542,0.239414,0.876403,-0.571984,0.027619,0.276722,19.385740,19.762018,-19.718830,33.987888
23.695000,-0.211203,0.925406,-0.058680,0.951013,-0.175250,-0.437781,0.955749,19.385740,19.762018,-19.718830,33.987888
23.923000,-0.697251,0.811676,0.011953,1.070102,-0.320211,0.622721,-0.608301,19.385740,19.762018,-19.718830,33.987888
24.056999,-0.385989,1.090016,-0.363956,1.212265,-0.076066,1.492485,-8.069963,19.385740,19.762018,-19.718830,33.987888
24.191000,0.616036,1.183993,-0.314274,1.371170,-0.762722,-2.162051,14.574425,19.385740,19.762018,-19.718830,33.987888
24.325001,-0.568556,0.968504,0.351947,1.176912,0.190967,-0.872663,2.451133,19.385740,19.762018,-19.718830,33.987888
24.459000,-0.139972,1.050510,0.303462,1.102385,0.023117,0.493019,-0.036088,19.385740,19.762018,-19.718830,33.987888
24.593000,-0.130395,1.093009,0.102937,1.105562,0.366445,-0.826886,4.625543,19.385740,19.762018,-19.718830,33.987888
24.820000,0.016258,1.371948,0.089170,1.374938,0.091783,-0.689555,4.671320,19.385740,19.762018,-19.718830,33.987888
24.955000,-0.043601,1.015193,-0.003012,1.016134,-0.007401,0.134432,0.284352,19.385740,19.762018,-19.718830,33.987888
25.089001,-0.030432,1.091213,-0.023962,1.091900,-0.129473,-0.124971,0.032578,19.385740,19.762018,-19.718830,33.987888
25.223000,-0.058565,1.032552,0.023326,1.034475,0.175708,0.081025,0.009689,19.385740,19.762018,-19.718830,33.987888
25.357000,-0.057368,1.102586,0.006566,1.104097,-0.114214,-0.086824,0.673457,19.385740,19.762018,-19.718830,33.987888
25.490999,-0.094480,0.920617,-0.034138,0.926082,0.023117,-0.468299,3.046235,19.385740,19.762018,-19.718830,33.987888
25.716000,-0.059164,1.040932,0.023925,1.042887,0.076524,-0.033417,-0.097124,19.385740,19.762018,-19.718830,33.987888
25.850000,0.009075,1.090614,0.026918,1.090984,-0.015030,-0.079194,-0.058976,19.385740,19.762018,-19.718830,33.987888
25.983999,-0.077121,1.031355,0.035896,1.034857,0.076524,0.042878,0.040208,19.385740,19.762018,-19.718830,33.987888
26.118000,-0.040608,1.058890,0.041283,1.060472,-0.053178,-0.033417,0.055467,19.385740,19.762018,-19.718830,33.987888
26.252001,-0.063354,1.037341,-0.016779,1.039409,-0.060807,-0.033417,0.047837,19.385740,19.762018,-19.718830,33.987888
26.386000,-0.031030,1.081037,-0.029349,1.081881,-0.022660,-0.041047,-0.043717,19.385740,19.762018,-19.718830,33.987888
26.610001,0.084496,1.073854,0.020333,1.077365,0.076524,0.073396,0.124132,19.385740,19.762018,-19.718830,33.987888
26.743999,-0.074128,1.049312,0.064030,1.053874,0.236744,0.172580,0.093614,19.385740,19.762018,-19.718830,33.987888
26.878000,-0.086698,1.047517,-0.037131,1.051754,0.068894,0.073396,-0.532006,19.385740,19.762018,-19.718830,33.987888
27.013000,0.297591,1.157057,-0.046708,1.195626,-0.037919,0.081025,0.200427,19.385740,19.762018,-19.718830,33.987888
27.146999,-0.282434,1.072058,0.234625,1.133193,0.305409,0.119173,-0.463340,19.385740,19.762018,-19.718830,33.987888
27.281000,-0.068142,0.917625,-0.014983,0.920273,-0.175250,-0.254673,0.185168,19.385740,19.762018,-19.718830,33.987888
27.506001,0.200620,0.957729,-0.171811,0.993486,-0.266804,0.126802,-0.470970,19.385740,19.762018,-19.718830,33.987888
27.639999,-0.366236,1.169029,-0.276563,1.255883,-0.114214,-0.102083,-0.066606,19.385740,19.762018,-19.718830,33.987888
27.774000,-0.105254,0.978680,0.172971,0.999406,-0.526207,-0.186007,0.124132,19.385740,19.762018,-19.718830,33.987888
27.908001,-0.349475,0.811077,-0.211318,0.908094,0.625849,-0.147860,1.169375,19.385740,19.762018,-19.718830,33.987888
28.042000,0.082700,1.058291,0.148429,1.071844,0.976806,0.988937,0.009689,19.385740,19.762018,-19.718830,33.987888
28.176001,0.143755,1.608387,-0.448356,1.675887,-1.663004,-1.406729,0.360647,19.385740,19.762018,-19.718830,33.987888
28.309999,-0.253702,0.462104,-0.220895,0.571577,2.685817,1.202563,-0.028458,19.385740,19.762018,-19.718830,33.987888
28.537001,-0.093283,0.853576,-0.405856,0.949744,0.465629,-0.796368,0.459831,19.385740,19.762018,-19.718830,33.987888
28.671000,-0.143564,1.018785,0.073008,1.031437,-0.953460,0.172580,0.543755,19.385740,19.762018,-19.718830,33.987888
28.805000,0.401145,1.219908,0.012552,1.284231,0.427481,-0.849775,5.609750,19.385740,19.762018,-19.718830,33.987888
28.938999,-0.531444,0.823049,-0.082024,0.983143,-0.358358,-0.002899,0.543755,19.385740,19.762018,-19.718830,33.987888
29.073000,0.062348,0.914632,-0.076038,0.919902,-0.251545,-2.368047,23.264437,19.385740,19.762018,-19.718830,33.987888
29.207001,-0.290814,1.048115,-0.055687,1.089137,-0.137102,0.027619,1.085450,19.385740,19.762018,-19.718830,33.987888
29.433001,-0.250111,0.963715,-0.072447,0.998274,0.007858,-0.239414,0.742123,19.385740,19.762018,-19.718830,33.987888
29.568001,0.176079,1.209732,0.062832,1.224093,-0.114214,-0.208896,2.153582,19.385740,19.762018,-19.718830,33.987888
29.702000,-0.186063,0.987659,0.006566,1.005053,0.053635,-0.102083,0.551385,19.385740,19.762018,-19.718830,33.987888
29.836000,0.025835,1.200155,-0.053891,1.201642,-0.076066,0.081025,0.093614,19.385740,19.762018,-19.718830,33.987888
29.971001,-0.186661,0.931991,-0.033539,0.951091,-0.022660,-0.041047,-0.165789,19.385740,19.762018,-19.718830,33.987888
30.105000,-0.059762,1.108572,0.019735,1.110357,0.053635,-0.056306,-0.142901,19.385740,19.762018,-19.718830,33.987888
30.330999,0.087489,1.182796,0.036495,1.186589,-0.022660,-0.071565,0.559014,19.385740,19.762018,-19.718830,33.987888
30.465000,-0.020854,1.029559,-0.032342,1.030278,-0.137102,-0.086824,-0.364157,19.385740,19.762018,-19.718830,33.987888
30.600000,0.052771,1.125931,0.032305,1.127629,0.137560,0.050507,-0.264973,19.385740,19.762018,-19.718830,33.987888
30.733999,-0.126205,1.047517,-0.036532,1.055724,0.015488,0.203098,-0.280232,19.385740,19.762018,-19.718830,33.987888
30.868000,0.266464,1.155261,0.019735,1.185758,-0.121843,0.058137,-0.280232,19.385740,19.762018,-19.718830,33.987888
31.002001,-0.115430,1.104382,-0.116742,1.116518,-0.053178,-0.430152,0.246204,19.385740,19.762018,-19.718830,33.987888
31.228001,0.070728,1.328251,0.059839,1.331478,0.023117,-1.025254,7.028839,19.385740,19.762018,-19.718830,33.987888
31.362000,-0.058565,1.002623,0.014347,1.004435,-0.060807,0.203098,-0.036088,19.385740,19.762018,-19.718830,33.987888
31.496000,-0.010679,1.080439,0.026918,1.080827,0.152819,-0.186007,0.200427,19.385740,19.762018,-19.718830,33.987888
31.629999,0.062947,1.135508,-0.005406,1.137264,-0.114214,0.149691,-0.058976,19.385740,19.762018,-19.718830,33.987888
31.764000,-0.056769,0.980476,0.029910,0.982573,0.023117,0.004730,0.040208,19.385740,19.762018,-19.718830,33.987888
31.898001,0.037806,1.167233,-0.017976,1.167983,-0.030289,0.096284,-0.135271,19.385740,19.762018,-19.718830,33.987888
32.125000,-0.016664,1.143888,-0.019772,1.144180,-0.068437,0.073396,0.024949,19.385740,19.762018,-19.718830,33.987888
32.258999,-0.104656,1.006214,0.004770,1.011654,-0.030289,-0.056306,0.055467,19.385740,19.762018,-19.718830,33.987888
32.393002,0.049179,1.114558,-0.029349,1.116028,0.061265,0.081025,0.093614,19.385740,19.762018,-19.718830,33.987888
32.528000,-0.080114,1.064875,0.001777,1.067886,0.206226,0.096284,0.040208,19.385740,19.762018,-19.718830,33.987888
32.662998,0.027032,1.283956,-0.207128,1.300837,-0.243915,-0.231785,0.085985,19.385740,19.762018,-19.718830,33.987888
32.798000,-0.223175,0.942765,0.028115,0.969228,0.381704,0.119173,-0.181048,19.385740,19.762018,-19.718830,33.987888
33.021000,-0.126205,1.907079,-0.434588,1.960037,-1.434119,-0.536965,-0.066606,19.385740,19.762018,-19.718830,33.987888
33.158001,0.371815,0.763789,0.290892,0.897908,0.839475,0.241245,-0.013199,19.385740,19.762018,-19.718830,33.987888
33.334000,-0.760701,0.791923,-0.448356,1.186098,-0.930571,-0.704814,1.146487,19.385740,19.762018,-19.718830,33.987888
33.511002,0.210198,1.220507,-0.013786,1.238551,0.419852,0.012360,0.108873,19.385740,19.762018,-19.718830,33.987888
33.688000,0.080306,0.923012,0.132866,0.935977,0.419852,0.561685,-0.432822,19.385740,19.762018,-19.718830,33.987888
33.955002,0.074918,1.008609,0.032903,1.011922,-0.045548,0.157321,-0.173419,19.385740,19.762018,-19.718830,33.987888
34.131001,-0.126205,1.052904,0.065825,1.062482,0.038376,-0.056306,0.215686,19.385740,19.762018,-19.718830,33.987888
34.306999,-0.218985,0.917625,-0.255014,0.977252,0.259632,-0.147860,-0.104753,19.385740,19.762018,-19.718830,33.987888
34.484001,-0.263280,0.956532,0.387263,1.065009,0.267262,0.195468,-0.364157,19.385740,19.762018,-19.718830,33.987888
34.659000,-0.186063,0.867942,0.064030,0.889968,0.213855,0.050507,-0.272602,19.385740,19.762018,-19.718830,33.987888
34.837002,0.061151,1.193570,0.041283,1.195849,0.061265,0.279393,-0.272602,19.385740,19.762018,-19.718830,33.987888
35.105000,-0.156732,1.002024,0.166387,1.027766,-0.060807,-0.071565,-0.264973,19.385740,19.762018,-19.718830,33.987888
35.280998,-0.169303,1.017588,-0.019173,1.031754,-0.373617,-0.437781,0.528496,19.385740,19.762018,-19.718830,33.987888
35.456001,-0.122613,0.990053,0.063431,0.999631,-0.190509,-0.254673,0.017319,19.385740,19.762018,-19.718830,33.987888
35.632999,0.162910,1.010405,-0.034736,1.024043,1.121767,0.943160,-0.493858,19.385740,19.762018,-19.718830,33.987888
35.808998,0.080306,1.088819,0.240611,1.117975,-0.900053,-0.384375,0.246204,19.385740,19.762018,-19.718830,33.987888
35.985001,-0.522465,0.758402,-0.096390,0.925978,2.151751,0.988937,-0.532006,19.385740,19.762018,-19.718830,33.987888
36.250000,0.392765,1.497051,-0.007800,1.547736,-1.975814,-0.826886,0.383536,19.385740,19.762018,-19.718830,33.987888
36.426998,-0.304582,0.894280,-0.031743,0.945259,-0.480430,-0.041047,0.070726,19.385740,19.762018,-19.718830,33.987888
36.602001,-0.142366,1.039137,-0.241845,1.076365,-0.190509,-0.666667,0.200427,19.385740,19.762018,-19.718830,33.987888
36.778999,0.186255,1.202549,0.046671,1.217782,0.068894,0.271763,-0.051347,19.385740,19.762018,-19.718830,33.987888
36.955002,-0.066347,1.033151,-0.046708,1.036332,-0.083696,0.294652,-0.066606,19.385740,19.762018,-19.718830,33.987888
37.131001,-0.163915,0.981673,0.014347,0.995367,0.122301,-0.124971,0.032578,19.385740,19.762018,-19.718830,33.987888
37.306999,-0.068741,1.132515,-0.001814,1.134601,0.076524,-0.117342,0.040208,19.385740,19.762018,-19.718830,33.987888
37.574001,-0.050784,1.060685,-0.021568,1.062119,0.091783,-0.041047,0.085985,19.385740,19.762018,-19.718830,33.987888
37.750999,-0.015467,1.152268,0.004770,1.152382,0.099413,0.042878,-0.013199,19.385740,19.762018,-19.718830,33.987888
37.926998,-0.056171,1.145085,-0.035335,1.147007,-0.060807,0.050507,-0.043717,19.385740,19.762018,-19.718830,33.987888
38.105000,-0.037615,0.935582,0.077797,0.939564,0.335927,0.248875,-0.188678,19.385740,19.762018,-19.718830,33.987888
38.280998,0.083897,1.011003,0.250787,1.045017,0.030747,-0.186007,-0.043717,19.385740,19.762018,-19.718830,33.987888
38.458000,0.146150,1.131917,-0.284943,1.176345,-0.289693,-0.010529,0.108873,19.385740,19.762018,-19.718830,33.987888
38.723999,0.167699,1.108572,-0.023363,1.121428,0.122301,0.035248,0.047837,19.385740,19.762018,-19.718830,33.987888
38.902000,-0.212400,0.799106,-0.273570,0.870933,-0.915312,-0.155489,-0.455711,19.385740,19.762018,-19.718830,33.987888
39.080002,0.246113,1.126529,-0.630923,1.314421,-0.983978,-0.430152,-0.120012,19.385740,19.762018,-19.718830,33.987888
39.257000,0.059954,0.950547,0.120895,0.960077,0.343557,-0.025788,0.276722,19.385740,19.762018,-19.718830,33.987888
39.435001,0.036011,1.207338,-0.059278,1.209328,-0.106584,0.088655,0.124132,19.385740,19.762018,-19.718830,33.987888
39.612999,-0.087896,1.122938,-0.026955,1.126695,-0.045548,0.218357,-0.051347,19.385740,19.762018,-19.718830,33.987888
39.881001,0.057560,1.028961,0.320222,1.079173,-0.030289,0.096284,-0.043717,19.385740,19.762018,-19.718830,33.987888
40.057999,-0.107050,1.000229,0.144838,1.016315,0.160449,0.119173,-0.158160,19.385740,19.762018,-19.718830,33.987888
40.235001,-0.011876,0.841605,0.270540,0.884099,-0.114214,0.042878,0.162280,19.385740,19.762018,-19.718830,33.987888
40.411999,-0.095677,0.974490,-0.143678,0.989660,0.816586,-0.216525,-0.181048,19.385740,19.762018,-19.718830,33.987888
40.589001,-0.025045,1.064277,0.198710,1.082958,-0.015030,0.142062,-0.028458,19.385740,19.762018,-19.718830,33.987888
40.764999,-0.148352,1.033749,0.224449,1.068187,0.015488,-0.002899,0.002060,19.385740,19.762018,-19.718830,33.987888
41.035000,0.110833,1.077446,-0.555502,1.217274,-0.327840,-0.041047,0.185168,19.385740,19.762018,-19.718830,33.987888
41.212002,-0.060959,1.367757,-1.348023,1.921365,-0.144732,0.271763,0.337758,19.385740,19.762018,-19.718830,33.987888
41.389999,0.107840,1.273780,-0.182586,1.291311,-0.076066,-0.010529,-0.142901,19.385740,19.762018,-19.718830,33.987888
41.566002,0.017455,1.100192,-0.317865,1.145323,-0.518578,-0.132601,-0.478599,19.385740,19.762018,-19.718830,33.987888
41.743000,-0.074727,0.935582,0.329201,0.994621,0.381704,-0.163119,0.047837,19.385740,19.762018,-19.718830,33.987888
41.918999,-0.165711,0.768578,1.100772,1.352727,-0.777981,-0.369116,0.208057,19.385740,19.762018,-19.718830,33.987888
42.186001,0.199423,1.243851,-0.258007,1.285886,-0.182879,0.348058,-0.226825,19.385740,19.762018,-19.718830,33.987888
42.362999,0.204811,1.293533,-0.106566,1.313976,-0.373617,0.149691,0.345388,19.385740,19.762018,-19.718830,33.987888
42.540001,-0.153739,1.075650,-0.867362,1.390315,-1.121309,-0.437781,0.307240,19.385740,19.762018,-19.718830,33.987888
42.716000,-0.372221,1.383919,-1.017606,1.757641,-0.533837,0.073396,0.063096,19.385740,19.762018,-19.718830,33.987888
42.891998,-0.130993,0.752416,0.924789,1.199385,0.702144,-0.170748,-0.051347,19.385740,19.762018,-19.718830,33.987888
43.069000,0.034814,0.810479,0.108325,0.818426,0.625849,0.416724,-0.562524,19.385740,19.762018,-19.718830,33.987888
43.335999,-0.106452,0.721290,0.354341,0.810647,1.785534,0.988937,-0.173419,19.385740,19.762018,-19.718830,33.987888
43.513000,-0.115430,1.311491,-0.924826,1.608924,-0.907683,-0.620890,-0.547265,19.385740,19.762018,-19.718830,33.987888
43.689999,0.029426,1.414447,-1.295348,1.918190,-1.281529,-0.453040,-0.600671,19.385740,19.762018,-19.718830,33.987888
43.866001,0.235937,1.319272,-1.130738,1.753486,-1.334936,-0.224155,0.085985,19.385740,19.762018,-19.718830,33.987888
44.042999,-0.292012,1.072058,-0.008997,1.111153,-1.067903,-0.681926,0.467460,19.385740,19.762018,-19.718830,33.987888
44.220001,-0.417714,1.274977,-1.082253,1.723753,-1.113680,-0.323339,0.383536,19.385740,19.762018,-19.718830,33.987888
44.487000,0.314949,1.328850,-0.366350,1.413947,-0.068437,0.195468,0.353017,19.385740,19.762018,-19.718830,33.987888
44.664001,-0.160324,1.420433,-0.466912,1.503775,-1.182345,-0.369116,0.475090,19.385740,19.762018,-19.718830,33.987888
44.841000,-0.536233,1.282759,-0.720111,1.565751,-0.121843,0.287022,0.116503,19.385740,19.762018,-19.718830,33.987888
45.016998,-0.197436,1.106178,-0.460926,1.214521,-0.861906,-0.758221,-0.387045,19.385740,19.762018,-19.718830,33.987888
45.192001,-0.080114,0.760796,1.162426,1.391568,0.427481,0.210727,-0.676966,19.385740,19.762018,-19.718830,33.987888
45.368999,-0.050784,0.909244,0.663209,1.126566,0.572442,0.157321,-0.348898,19.385740,19.762018,-19.718830,33.987888
45.637001,0.003687,1.339624,-0.434588,1.408358,-0.152361,-0.071565,-0.486229,19.385740,19.762018,-19.718830,33.987888
45.813000,-0.032826,0.987659,-0.110157,0.994325,-1.067903,-0.483558,-0.875334,19.385740,19.762018,-19.718830,33.987888
45.992001,0.100657,1.301913,-0.061074,1.307226,-0.709316,0.126802,-0.417563,19.385740,19.762018,-19.718830,33.987888
46.169998,0.093474,0.899667,0.226245,0.932376,-0.716945,-0.727703,0.360647,19.385740,19.762018,-19.718830,33.987888
46.347000,-0.490142,0.996039,-0.302302,1.150530,-0.968719,-0.506447,0.612421,19.385740,19.762018,-19.718830,33.987888
46.522999,-0.332715,1.022376,0.117902,1.081598,-0.320211,-0.704814,-0.188678,19.385740,19.762018,-19.718830,33.987888
46.792000,-0.007686,1.368955,-0.284943,1.398316,-0.983978,-0.140230,0.627680,19.385740,19.762018,-19.718830,33.987888
46.969002,-0.372221,1.327054,-0.292126,1.408886,0.374075,0.325170,0.261463,19.385740,19.762018,-19.718830,33.987888
47.146000,-0.148951,1.224098,-0.350787,1.282051,-0.579614,-0.453040,-0.661707,19.385740,19.762018,-19.718830,33.987888
47.324001,0.157523,1.349201,-1.106196,1.751807,-1.289158,-0.285191,-0.829557,19.385740,19.762018,-19.718830,33.987888
47.501999,0.387378,1.323462,-0.218501,1.396194,-0.564355,0.004730,0.192798,19.385740,19.762018,-19.718830,33.987888
47.679001,0.045588,0.972694,-0.357371,1.037269,-1.136568,-0.582742,0.551385,19.385740,19.762018,-19.718830,33.987888
47.945000,0.462200,1.131318,-0.693774,1.405287,0.427481,0.576944,-0.364157,19.385740,19.762018,-19.718830,33.987888
48.122002,-0.037615,0.933188,0.371102,1.004973,0.213855,0.287022,0.894713,19.385740,19.762018,-19.718830,33.987888
48.298000,0.123404,1.418637,-1.401895,1.998266,-0.365988,0.081025,0.559014,19.385740,19.762018,-19.718830,33.987888
48.473999,-0.158528,0.931991,-0.474095,1.057593,1.411688,1.004196,-0.074235,19.385740,19.762018,-19.718830,33.987888
48.651001,-0.199830,1.164838,-0.170016,1.194021,-0.503319,-0.430152,-0.509117,19.385740,19.762018,-19.718830,33.987888
48.828999,0.003089,1.331244,-0.390293,1.387281,-0.922942,-0.392004,-0.898222,19.385740,19.762018,-19.718830,33.987888
49.097000,0.354456,0.356754,0.988239,1.108841,1.259098,0.798199,-0.219196,19.385740,19.762018,-19.718830,33.987888
49.273998,-0.414122,1.206141,0.177760,1.287583,1.472724,0.920272,0.589532,19.385740,19.762018,-19.718830,33.987888
49.450001,-0.083705,1.518001,-1.388128,2.058697,-1.540932,-0.651408,-0.326009,19.385740,19.762018,-19.718830,33.987888
49.626999,0.264669,0.774564,-0.081426,0.822574,-0.465171,-0.323339,-0.135271,19.385740,19.762018,-19.718830,33.987888
49.803001,-0.425495,0.222672,2.663068,2.706023,3.128328,1.423819,0.375906,19.385740,19.762018,-19.718830,33.987888
49.980000,0.165304,1.182197,0.850565,1.465734,0.099413,0.157321,0.398795,19.385740,19.762018,-19.718830,33.987888
50.248001,0.031222,1.423425,-1.096020,1.796768,-1.266270,-0.857404,-0.921111,19.385740,19.762018,-19.718830,33.987888
50.424999,-0.042403,1.332441,-0.362759,1.381590,1.327764,1.324636,0.269093,19.385740,19.762018,-19.718830,33.987888
50.601002,0.164706,0.750022,1.658051,1.827236,0.793698,0.668498,0.299611,19.385740,19.762018,-19.718830,33.987888
50.778000,0.019250,0.467492,1.109152,1.203801,0.831846,-0.048676,-0.501488,19.385740,19.762018,-19.718830,33.987888
50.953999,0.055165,0.918822,0.203499,0.942703,-0.922942,-0.346227,0.093614,19.385740,19.762018,-19.718830,33.987888
51.130001,-0.116627,1.714336,-1.676045,2.400349,-1.601968,-0.666667,-0.539635,19.385740,19.762018,-19.718830,33.987888
51.306999,-0.200429,1.412651,-1.493478,2.065486,-0.556725,-0.552224,0.459831,19.385740,19.762018,-19.718830,33.987888
51.571999,-0.239337,1.494058,-0.508812,1.596365,-0.816129,-0.292821,-0.219196,19.385740,19.762018,-19.718830,33.987888
51.749001,0.018652,0.994243,-0.588424,1.155469,0.854734,0.760052,0.436942,19.385740,19.762018,-19.718830,33.987888
51.924999,0.426285,0.937378,-0.375927,1.096229,-0.465171,-0.468299,-0.348898,19.385740,19.762018,-19.718830,33.987888
52.103001,-0.013073,0.885900,0.196316,0.907485,-1.525673,-0.124971,0.200427,19.385740,19.762018,-19.718830,33.987888
52.278999,0.353857,1.143290,-0.190966,1.211938,0.549554,0.378576,0.116503,19.385740,19.762018,-19.718830,33.987888
52.456001,-0.302786,1.239063,0.056248,1.276761,-0.488060,-0.285191,0.147021,19.385740,19.762018,-19.718830,33.987888
52.723000,-0.132191,1.099593,0.158605,1.118810,1.098878,0.752422,-0.257343,19.385740,19.762018,-19.718830,33.987888
52.900002,-0.300392,1.300716,-0.129312,1.341201,-0.190509,-0.063935,0.307240,19.385740,19.762018,-19.718830,33.987888
53.076000,0.410722,0.959525,-0.787153,1.307284,-0.358358,0.035248,0.139391,19.385740,19.762018,-19.718830,33.987888
53.252998,-0.073530,0.812274,0.491416,0.952201,0.145190,-0.140230,-0.066606,19.385740,19.762018,-19.718830,33.987888
53.430000,0.024638,1.041531,-0.262197,1.074309,-0.610132,-0.193637,0.162280,19.385740,19.762018,-19.718830,33.987888
53.606998,-0.115430,1.592225,-0.762012,1.768946,-1.083162,-0.598001,-0.196307,19.385740,19.762018,-19.718830,33.987888
53.875999,0.035412,1.105579,0.089170,1.109734,-0.091325,-0.170748,0.162280,19.385740,19.762018,-19.718830,33.987888
54.051998,-0.189654,1.324061,-0.204135,1.353062,-0.243915,-0.308080,-0.501488,19.385740,19.762018,-19.718830,33.987888
54.229000,-0.175887,1.304308,-0.214311,1.333448,1.289616,0.576944,0.330129,19.385740,19.762018,-19.718830,33.987888
54.660999,0.025835,1.134909,-0.006603,1.135223,-0.259174,-0.018158,-0.295491,19.385740,19.762018,-19.718830,33.987888
54.838001,0.000694,0.941568,0.000580,0.941568,-0.152361,-0.170748,-0.005570,19.385740,19.762018,-19.718830,33.987888
55.014000,-0.060361,1.003820,0.135859,1.014769,0.152819,0.111543,0.040208,19.385740,19.762018,-19.718830,33.987888
55.278999,-0.023847,1.028961,-0.111953,1.035308,0.076524,0.111543,-0.043717,19.385740,19.762018,-19.718830,33.987888
55.456001,0.046785,1.132515,-0.056884,1.134907,-0.114214,-0.033417,0.032578,19.385740,19.762018,-19.718830,33.987888
55.632999,-0.059762,1.098396,-0.023363,1.100269,-0.015030,0.073396,-0.020829,19.385740,19.762018,-19.718830,33.987888
55.807999,0.058757,1.118748,-0.056285,1.121703,-0.175250,-0.071565,-0.242084,19.385740,19.762018,-19.718830,33.987888
55.985001,-0.062157,1.006813,0.025720,1.009058,0.358816,0.264134,-0.013199,19.385740,19.762018,-19.718830,33.987888
56.160999,-0.062755,1.133712,-0.152058,1.145584,0.206226,0.088655,-0.058976,19.385740,19.762018,-19.718830,33.987888
56.426998,-0.029833,1.075051,0.037093,1.076105,0.091783,-0.025788,-0.028458,19.385740,19.762018,-19.718830,33.987888
56.605000,-0.064551,0.938575,0.081987,0.944358,0.099413,0.187839,-0.089494,19.385740,19.762018,-19.718830,33.987888
56.780998,0.109038,1.133114,0.005967,1.138364,-0.007401,-0.079194,0.009689,19.385740,19.762018,-19.718830,33.987888
56.958000,-0.344687,-1.070263,0.028713,1.124765,-2.960021,1.690852,-25.984053,19.385740,19.762018,-19.718830,33.987888
57.134998,-0.089691,1.129522,-0.159840,1.144296,0.206226,-0.170748,-0.051347,19.385740,19.762018,-19.718830,33.987888
57.312000,0.251500,1.015792,0.205295,1.066410,-2.288624,0.195468,0.559014,19.385740,19.762018,-19.718830,33.987888
57.578999,-0.527254,1.258217,4.118218,4.338297,-18.753107,-58.673840,129.551147,19.385740,19.762018,-19.718830,33.987888
57.757000,0.715999,1.777187,0.900247,2.116953,-93.346840,67.174942,6.716029,19.385740,19.762018,-19.718830,33.987888
57.933998,6.544381,-4.465414,-4.260119,8.995413,-249.004105,-106.098877,126.758751,19.385740,19.762018,-19.718830,33.987888
58.110001,10.994830,18.549425,28.464300,35.709717,-154.863571,-2.368047,9.538948,19.385740,19.762018,-19.718830,33.987888
58.285999,0.985959,-6.627488,16.475323,17.785725,45.464481,-133.351486,30.207294,19.385740,19.762018,-19.718830,33.987888
58.464001,3.419789,-0.964912,17.561747,17.917616,-17.181429,-45.543449,-75.774239,19.385740,19.762018,-19.718830,33.987888
58.730999,6.232521,2.913892,19.814207,20.974695,12.382925,9.465323,-11.800793,19.385740,19.762018,-19.718830,33.987888
58.908001,6.708991,2.804950,16.292156,17.841318,-1.632486,-12.744182,11.347142,19.385740,19.762018,-19.718830,33.987888
59.084999,6.161888,0.766184,17.550972,18.616995,-5.073396,0.355688,-10.633477,19.385740,19.762018,-19.718830,33.987888
59.262001,6.527621,2.241087,16.026386,17.449280,-24.727015,1.172045,4.251698,19.385740,19.762018,-19.718830,33.987888
59.438000,6.682653,1.441981,17.147530,18.460091,-11.886548,-5.931029,-4.758755,19.385740,19.762018,-19.718830,33.987888
59.616001,7.006485,0.903259,16.563913,18.007496,-18.478445,-15.994353,-0.997406,19.385740,19.762018,-19.718830,33.987888
59.882000,6.430052,0.479463,17.033798,18.213339,-24.131914,-13.354543,-4.621423,19.385740,19.762018,-19.718830,33.987888
60.058998,8.043228,-1.064277,18.472189,20.175430,-108.338821,-13.209581,-26.640192,19.385740,19.762018,-19.718830,33.987888
60.236000,8.598711,0.047288,17.652731,19.635654,-122.674675,-20.282137,-21.902266,19.385740,19.762018,-19.718830,33.987888
60.414001,13.663304,-1.940599,12.741375,18.782824,-41.778969,101.408554,-29.920879,19.385740,19.762018,-19.718830,33.987888
60.591000,5.859006,-3.953028,16.031775,17.520620,54.474934,-6.167544,-67.694588,19.385740,19.762018,-19.718830,33.987888
60.768002,8.483784,-0.930195,17.502487,19.472466,83.543373,-37.555351,55.163422,19.385740,19.762018,-19.718830,33.987888
61.035000,5.962561,-1.925635,15.758821,16.958792,8.194324,14.638132,-18.491873,19.385740,19.762018,-19.718830,33.987888
61.213001,4.986874,-0.352564,17.907726,18.592468,-10.787899,39.960476,-34.124741,19.385740,19.762018,-19.718830,33.987888
61.389000,4.387694,-1.030158,16.929646,17.519304,16.251085,25.952696,2.557946,19.385740,19.762018,-19.718830,33.987888
61.566002,5.920061,1.693385,20.264938,21.179764,83.245819,16.568398,-86.493706,19.385740,19.762018,-19.718830,33.987888
61.743000,3.851366,4.346296,17.701216,18.629448,26.589073,25.212633,1.398260,19.385740,19.762018,-19.718830,33.987888
61.918999,3.145639,4.774880,17.941248,18.830372,43.915691,-0.742962,-9.855268,19.385740,19.762018,-19.718830,33.987888
62.183998,3.881294,7.850987,13.945720,16.467712,134.210953,-39.668724,-21.436865,19.385740,19.762018,-19.718830,33.987888
62.360001,3.761578,9.065508,10.135753,14.109089,58.106583,-7.411154,-13.006255,19.385740,19.762018,-19.718830,33.987888
62.536999,3.181553,9.181633,9.468334,13.567389,35.233311,-8.715800,-12.365377,19.385740,19.762018,-19.718830,33.987888
62.713001,2.454278,8.801534,7.662416,11.924894,144.320053,-18.313725,-33.659340,19.385740,19.762018,-19.718830,33.987888
62.889999,0.921910,5.115473,3.650128,6.351489,170.237488,-3.077592,-37.527500,19.385740,19.762018,-19.718830,33.987888
63.066002,1.075147,2.660094,0.919402,3.012862,19.585184,-8.120699,-17.652628,19.385740,19.762018,-19.718830,33.987888
63.334000,0.674697,2.311121,-0.347196,2.432497,15.594949,-20.999313,-60.232925,19.385740,19.762018,-19.718830,33.987888
63.509998,1.381022,0.523758,0.008362,1.477029,7.385595,-7.884184,-33.972153,19.385740,19.762018,-19.718830,33.987888
63.686001,0.082700,1.140297,0.920599,1.467862,22.636988,67.419083,-32.629356,19.385740,19.762018,-19.718830,33.987888
63.862000,0.723780,1.525184,1.125314,2.028885,-14.320362,-3.192035,18.030592,19.385740,19.762018,-19.718830,33.987888
64.038002,0.387378,-0.511188,-1.239081,1.395241,119.646210,-25.813534,-2.378347,19.385740,19.762018,-19.718830,33.987888
64.213997,1.245743,0.848788,1.933996,2.452072,-23.208742,-13.255360,79.066681,19.385740,19.762018,-19.718830,33.987888
64.482002,2.588958,-1.879544,-0.841025,3.307977,-44.060196,41.951778,17.321049,19.385740,19.762018,-19.718830,33.987888
64.658997,0.278436,1.604795,2.263216,2.788376,11.063020,22.389713,24.416494,19.385740,19.762018,-19.718830,33.987888
64.835999,5.772810,-2.987517,1.159433,6.602642,-3.921340,-7.746853,203.832062,19.385740,19.762018,-19.718830,33.987888
65.012001,-2.045854,-3.644161,0.023925,4.179234,-72.609825,-110.470589,-4.453574,19.385740,19.762018,-19.718830,33.987888
65.189003,1.434296,0.006584,-3.265876,3.566959,-74.395134,49.054852,-15.234073,19.385740,19.762018,-19.718830,33.987888
65.364998,-0.182471,0.466295,-0.016779,0.501007,-0.083696,-0.094453,-0.020829,19.385740,19.762018,-19.718830,33.987888
65.632004,-0.202823,0.535730,-0.031145,0.573684,-0.068437,0.073396,0.017319,19.385740,19.762018,-19.718830,33.987888
65.809998,-0.104057,0.474076,-0.072447,0.490739,-0.045548,-0.086824,0.063096,19.385740,19.762018,-19.718830,33.987888
65.987000,-0.093283,0.487843,-0.074841,0.502289,-0.045548,0.164950,0.055467,19.385740,19.762018,-19.718830,33.987888
66.166000,-0.155535,0.506998,-0.046109,0.532320,-0.068437,0.035248,0.085985,19.385740,19.762018,-19.718830,33.987888
66.343002,-0.179478,0.457914,-0.054489,0.494841,-0.022660,0.119173,-0.051347,19.385740,19.762018,-19.718830,33.987888
66.519997,-0.163317,0.478266,-0.028152,0.506165,0.015488,0.042878,0.024949,19.385740,19.762018,-19.718830,33.987888
66.785004,-0.145958,0.500414,-0.050299,0.523687,-0.121843,0.119173,0.040208,19.385740,19.762018,-19.718830,33.987888
66.961998,-0.159127,0.480062,-0.062870,0.509640,0.046006,0.073396,0.009689,19.385740,19.762018,-19.718830,33.987888
67.138000,-0.155535,0.387282,0.004770,0.417374,0.046006,-0.094453,0.063096,19.385740,19.762018,-19.718830,33.987888
67.315002,-0.142366,0.524955,-0.048504,0.546076,-0.114214,0.119173,0.131762,19.385740,19.762018,-19.718830,33.987888
67.491997,-0.193246,0.596187,-0.013187,0.626862,0.030747,-0.071565,0.017319,19.385740,19.762018,-19.718830,33.987888
67.668999,-0.170500,0.439957,-0.010194,0.471949,-0.098955,-0.155489,-0.051347,19.385740,19.762018,-19.718830,33.987888
67.933998,-0.035220,0.490836,-0.088609,0.500012,-0.030289,-0.010529,-0.036088,19.385740,19.762018,-19.718830,33.987888
68.111000,-0.065149,0.478865,-0.154452,0.507357,-0.175250,0.363317,0.017319,19.385740,19.762018,-19.718830,33.987888
68.288002,-0.333912,0.679988,0.037093,0.758457,-0.114214,-0.186007,0.101244,19.385740,19.762018,-19.718830,33.987888
68.463997,-0.140571,0.420802,-0.032342,0.444838,-0.213397,-0.063935,-0.043717,19.385740,19.762018,-19.718830,33.987888
68.640999,-0.044199,0.341191,-0.019173,0.344576,0.068894,0.035248,0.002060,19.385740,19.762018,-19.718830,33.987888
68.819000,-0.122015,0.450133,-0.023363,0.466961,0.168078,0.012360,0.017319,19.385740,19.762018,-19.718830,33.987888
68.996002,-0.226766,0.516575,0.030509,0.564981,0.053635,-0.048676,0.047837,19.385740,19.762018,-19.718830,33.987888
69.262001,-0.176486,0.401648,-0.017377,0.439056,0.107042,0.027619,-0.013199,19.385740,19.762018,-19.718830,33.987888
69.439003,-0.259090,0.520167,0.036495,0.582265,-0.076066,0.164950,0.169909,19.385740,19.762018,-19.718830,33.987888
69.615997,-0.212999,0.529146,-0.064665,0.574060,-0.053178,0.012360,0.024949,19.385740,19.762018,-19.718830,33.987888
69.792999,-0.075325,0.398655,-0.022166,0.406314,0.129931,-0.102083,-0.020829,19.385740,19.762018,-19.718830,33.987888
69.969002,-0.053776,0.515378,-0.107165,0.529142,0.068894,0.081025,0.078355,19.385740,19.762018,-19.718830,33.987888
70.147003,-0.117226,0.533336,-0.058081,0.549147,0.046006,0.157321,-0.074235,19.385740,19.762018,-19.718830,33.987888
70.412003,-0.091487,0.490238,-0.044912,0.500720,0.084154,0.126802,-0.028458,19.385740,19.762018,-19.718830,33.987888
70.588997,-0.154937,0.509991,-0.067060,0.537209,0.030747,0.050507,-0.005570,19.385740,19.762018,-19.718830,33.987888
70.764999,-0.190253,0.550096,0.005369,0.582091,-0.121843,0.134432,0.032578,19.385740,19.762018,-19.718830,33.987888
70.941002,-0.072332,0.557279,-0.402864,0.691441,0.076524,-0.033417,-0.051347,19.385740,19.762018,-19.718830,33.987888
71.116997,-0.171697,0.659636,-0.038926,0.682726,0.122301,0.035248,-0.364157,19.385740,19.762018,-19.718830,33.987888
71.292999,0.039602,0.504005,-0.065863,0.509831,0.190967,-0.544594,-0.264973,19.385740,19.762018,-19.718830,33.987888
71.560997,-0.119022,0.647665,-0.162833,0.678344,0.213855,-0.254673,0.131762,19.385740,19.762018,-19.718830,33.987888
71.737000,-0.128000,0.146652,-0.075440,0.208763,0.114672,0.126802,0.322499,19.385740,19.762018,-19.718830,33.987888
71.913002,-0.126205,0.862555,-0.004209,0.871749,-0.182879,-0.056306,0.406424,19.385740,19.762018,-19.718830,33.987888
72.088997,-0.078318,0.511787,0.024523,0.518325,-1.640116,1.431449,0.543755,19.385740,19.762018,-19.718830,33.987888
72.265999,-0.359053,0.669213,0.410608,0.863345,2.510338,-1.132067,-1.905318,19.385740,19.762018,-19.718830,33.987888
72.442001,-0.323736,0.376507,0.039488,0.498119,-1.159457,-0.056306,0.452201,19.385740,19.762018,-19.718830,33.987888
72.705002,-0.133986,0.882907,-0.232268,0.922727,0.610590,-1.116808,0.230945,19.385740,19.762018,-19.718830,33.987888
72.880997,-0.084304,0.765585,-0.387899,0.862377,-1.609598,1.790036,1.901808,19.385740,19.762018,-19.718830,33.987888
73.057999,-0.151345,0.902660,0.073607,0.918215,2.441672,-0.613260,-1.226291,19.385740,19.762018,-19.718830,33.987888
73.234001,-0.095079,1.601803,-0.909263,1.844335,-1.518044,1.095750,1.230411,19.385740,19.762018,-19.718830,33.987888
73.410004,0.066538,-0.317248,-0.852398,0.911952,-1.266270,2.140993,0.482719,19.385740,19.762018,-19.718830,33.987888
73.585999,0.110833,0.282530,0.325609,0.445117,1.037842,-0.826886,1.283818,19.385740,19.762018,-19.718830,33.987888
73.850998,-0.022052,0.833225,0.004770,0.833530,0.442740,0.119173,0.597162,19.385740,19.762018,-19.718830,33.987888
74.028000,-0.203422,0.595588,0.139451,0.644633,0.526665,-0.598001,-0.013199,19.385740,19.762018,-19.718830,33.987888
74.204002,-0.101064,0.685375,0.049664,0.694564,-0.266804,0.607462,-0.013199,19.385740,19.762018,-19.718830,33.987888
74.379997,-0.158528,0.679389,-0.268183,0.747411,-0.518578,0.271763,0.177539,19.385740,19.762018,-19.718830,33.987888
74.556000,-0.152542,0.359149,0.079593,0.398236,0.633478,-0.605631,-0.219196,19.385740,19.762018,-19.718830,33.987888
74.733002,0.007279,0.455520,-0.222691,0.507092,-0.312581,0.630350,0.002060,19.385740,19.762018,-19.718830,33.987888
74.997002,-0.125606,0.362740,-0.020969,0.384444,0.046006,-0.002899,0.124132,19.385740,19.762018,-19.718830,33.987888
75.174004,-0.069938,0.600377,-0.060475,0.607454,-0.221027,0.264134,0.116503,19.385740,19.762018,-19.718830,33.987888
75.349998,-0.154338,0.507597,0.031706,0.531488,0.557183,-0.407263,-0.081865,19.385740,19.762018,-19.718830,33.987888
75.527000,-0.095079,0.672805,-0.097587,0.686462,-0.060807,0.019989,-0.402304,19.385740,19.762018,-19.718830,33.987888
75.703003,-0.146556,0.401648,-0.008997,0.427646,-0.144732,0.309911,-0.158160,19.385740,19.762018,-19.718830,33.987888
75.879997,-0.317152,0.413021,0.034699,0.521896,0.107042,0.019989,0.169909,19.385740,19.762018,-19.718830,33.987888
76.143997,-0.233949,0.520167,0.018537,0.570657,-0.053178,0.073396,-0.043717,19.385740,19.762018,-19.718830,33.987888
76.320999,-0.193844,0.459112,-0.070053,0.503256,-0.129473,0.012360,-0.028458,19.385740,19.762018,-19.718830,33.987888
76.498001,-0.157930,0.462104,-0.046708,0.490575,0.091783,-0.002899,0.085985,19.385740,19.762018,-19.718830,33.987888
76.675003,-0.114233,0.506399,-0.050898,0.521613,0.091783,-0.002899,0.032578,19.385740,19.762018,-19.718830,33.987888
76.851997,-0.150148,0.513582,-0.043715,0.536863,-0.091325,0.012360,0.131762,19.385740,19.762018,-19.718830,33.987888
77.028000,-0.142366,0.458513,-0.050898,0.482797,-0.045548,0.035248,-0.005570,19.385740,19.762018,-19.718830,33.987888
77.293999,-0.020256,0.474076,-0.217902,0.522149,0.053635,0.035248,-0.051347,19.385740,19.762018,-19.718830,33.987888
77.470001,-0.157331,0.514780,-0.197550,0.573391,-0.114214,0.248875,0.002060,19.385740,19.762018,-19.718830,33.987888
77.646004,-0.264477,0.455520,0.225048,0.572794,0.252003,-0.536965,0.208057,19.385740,19.762018,-19.718830,33.987888
77.822998,-0.209407,0.367529,0.045474,0.425437,-0.228656,0.401465,-0.165789,19.385740,19.762018,-19.718830,33.987888
78.001999,0.077313,0.831429,-0.449553,0.948340,0.534295,-0.483558,-0.142901,19.385740,19.762018,-19.718830,33.987888
78.179001,-0.089691,0.402246,-0.473496,0.627730,-0.564355,0.744793,-0.387045,19.385740,19.762018,-19.718830,33.987888
78.448997,-0.332715,0.512385,0.204097,0.644122,-0.198138,0.195468,-0.379416,19.385740,19.762018,-19.718830,33.987888
78.625999,-0.050185,0.545307,-0.107165,0.557999,0.023117,0.157321,-0.669337,19.385740,19.762018,-19.718830,33.987888
78.802002,-0.161521,0.413619,-0.002413,0.444045,0.137560,-0.216525,0.192798,19.385740,19.762018,-19.718830,33.987888
78.977997,-0.168704,0.515378,-0.420222,0.686049,-0.549096,0.752422,-0.036088,19.385740,19.762018,-19.718830,33.987888
79.155998,-0.081311,0.468090,-0.120333,0.490102,-0.121843,0.111543,-0.051347,19.385740,19.762018,-19.718830,33.987888
79.333000,-0.053776,0.377106,-0.089806,0.391364,0.091783,0.180209,-0.097124,19.385740,19.762018,-19.718830,33.987888
79.598000,-0.103459,0.393866,-0.019173,0.407679,0.068894,0.027619,-0.074235,19.385740,19.762018,-19.718830,33.987888
79.776001,-0.132789,0.478266,-0.060475,0.500029,0.030747,0.065766,0.063096,19.385740,19.762018,-19.718830,33.987888
79.953003,-0.177084,0.584814,-0.013187,0.611179,-0.098955,0.019989,0.101244,19.385740,19.762018,-19.718830,33.987888
80.128998,-0.125606,0.520167,-0.044912,0.536999,-0.083696,-0.010529,0.024949,19.385740,19.762018,-19.718830,33.987888
80.305000,-0.122613,0.469287,-0.050898,0.487704,0.015488,0.050507,-0.020829,19.385740,19.762018,-19.718830,33.987888
80.482002,-0.160324,0.481858,-0.061672,0.511560,0.038376,-0.025788,0.108873,19.385740,19.762018,-19.718830,33.987888
80.749001,-0.168105,0.490836,-0.043715,0.520664,-0.030289,0.050507,0.093614,19.385740,19.762018,-19.718830,33.987888
80.926003,-0.148951,0.437563,-0.055687,0.465562,0.053635,-0.018158,-0.020829,19.385740,19.762018,-19.718830,33.987888
81.103996,-0.126205,0.457914,-0.026356,0.475718,0.053635,0.027619,0.078355,19.385740,19.762018,-19.718830,33.987888
81.280998,-0.169303,0.533934,-0.034736,0.561209,0.007858,-0.033417,0.055467,19.385740,19.762018,-19.718830,33.987888
81.457001,-0.161521,0.532138,-0.042518,0.557735,-0.106584,-0.018158,0.017319,19.385740,19.762018,-19.718830,33.987888
81.635002,-0.142965,0.445943,-0.047905,0.470743,-0.030289,0.035248,0.055467,19.385740,19.762018,-19.718830,33.987888
81.903000,-0.195640,0.477069,-0.016180,0.515880,-0.007401,0.035248,0.002060,19.385740,19.762018,-19.718830,33.987888
82.080002,-0.171697,0.480660,-0.029349,0.511249,-0.045548,0.035248,0.047837,19.385740,19.762018,-19.718830,33.987888
82.255997,-0.078917,0.429183,-0.055088,0.439841,0.030747,-0.010529,-0.036088,19.385740,19.762018,-19.718830,33.987888
82.433998,-0.142965,0.439957,-0.086813,0.470678,0.107042,0.142062,-0.020829,19.385740,19.762018,-19.718830,33.987888
82.611000,-0.210605,0.514780,0.023925,0.556709,-0.030289,0.042878,0.047837,19.385740,19.762018,-19.718830,33.987888
82.787003,-0.153141,0.516575,-0.050898,0.541196,-0.053178,0.035248,0.032578,19.385740,19.762018,-19.718830,33.987888
82.963997,-0.101663,0.509991,-0.060475,0.523530,-0.053178,0.004730,0.063096,19.385740,19.762018,-19.718830,33.987888
83.236000,-0.198034,0.511188,-0.019173,0.548542,0.023117,-0.048676,-0.013199,19.385740,19.762018,-19.718830,33.987888
83.413002,-0.108247,0.463302,-0.091601,0.484517,-0.068437,0.050507,0.063096,19.385740,19.762018,-19.718830,33.987888
83.588997,-0.097473,0.420802,-0.030546,0.433023,0.038376,0.073396,0.131762,19.385740,19.762018,-19.718830,33.987888
83.765999,-0.203422,0.599778,-0.063468,0.636508,-0.015030,0.088655,0.070726,19.385740,19.762018,-19.718830,33.987888
83.942001,-0.207612,0.697347,-0.033539,0.728368,-0.045548,-0.033417,-0.158160,19.385740,19.762018,-19.718830,33.987888
84.121002,-0.086100,0.511787,-0.024560,0.519559,-0.037919,-0.102083,-0.112383,19.385740,19.762018,-19.718830,33.987888
84.394997,-0.275850,0.287917,-0.105369,0.412422,0.282521,-0.247044,0.070726,19.385740,19.762018,-19.718830,33.987888
84.571999,-0.083107,0.827239,-0.058680,0.833471,0.259632,0.073396,0.391165,19.385740,19.762018,-19.718830,33.987888
84.748001,-0.076522,0.552490,-0.079630,0.563420,0.099413,0.081025,-0.234455,19.385740,19.762018,-19.718830,33.987888
84.925003,-0.229759,0.524955,-0.006603,0.573072,-0.144732,0.065766,-0.112383,19.385740,19.762018,-19.718830,33.987888
85.100998,-0.155535,0.468090,-0.003610,0.493267,-0.060807,-0.010529,0.154650,19.385740,19.762018,-19.718830,33.987888
85.365997,-0.244724,0.270559,0.119698,0.383952,0.015488,-0.124971,-0.112383,19.385740,19.762018,-19.718830,33.987888
85.541000,-0.143564,0.426190,-0.085616,0.457797,0.076524,-0.056306,0.185168,19.385740,19.762018,-19.718830,33.987888
85.718002,-0.149549,0.496224,-0.047307,0.520424,0.023117,0.042878,0.032578,19.385740,19.762018,-19.718830,33.987888
85.894997,-0.134585,0.426788,-0.052694,0.450597,0.137560,-0.018158,-0.020829,19.385740,19.762018,-19.718830,33.987888
86.070999,-0.131592,0.538124,-0.047307,0.555996,0.068894,0.042878,0.108873,19.385740,19.762018,-19.718830,33.987888
86.248001,-0.149549,0.563863,-0.041919,0.584862,0.015488,0.019989,0.040208,19.385740,19.762018,-19.718830,33.987888
86.515999,-0.129198,0.479463,-0.043715,0.498486,0.046006,0.058137,0.101244,19.385740,19.762018,-19.718830,33.987888
86.692001,-0.129796,0.499216,-0.046109,0.517871,0.030747,-0.010529,0.017319,19.385740,19.762018,-19.718830,33.987888
86.866997,-0.149549,0.500414,-0.063468,0.526125,-0.007401,0.027619,0.047837,19.385740,19.762018,-19.718830,33.987888
87.043999,-0.164514,0.508195,-0.022765,0.534645,-0.053178,0.065766,0.017319,19.385740,19.762018,-19.718830,33.987888
87.221001,-0.147754,0.479463,-0.029349,0.502571,-0.098955,0.027619,0.070726,19.385740,19.762018,-19.718830,33.987888
87.397003,-0.130395,0.485449,-0.074841,0.508198,-0.037919,0.004730,0.009689,19.385740,19.762018,-19.718830,33.987888
87.663002,-0.159725,0.538723,-0.017377,0.562171,-0.060807,-0.010529,-0.005570,19.385740,19.762018,-19.718830,33.987888
87.839996,-0.136381,0.352564,-0.122129,0.397261,0.061265,-0.018158,0.055467,19.385740,19.762018,-19.718830,33.987888
88.014999,-0.154338,0.394465,-0.032342,0.424816,0.084154,0.019989,0.040208,19.385740,19.762018,-19.718830,33.987888
88.191002,-0.138775,0.464499,-0.060475,0.488544,0.068894,-0.010529,0.055467,19.385740,19.762018,-19.718830,33.987888
88.367996,-0.120817,0.488442,-0.067060,0.507612,0.023117,0.058137,0.093614,19.385740,19.762018,-19.718830,33.987888
88.544998,-0.101064,0.542314,-0.050898,0.553994,-0.015030,0.035248,0.070726,19.385740,19.762018,-19.718830,33.987888
88.813004,-0.131592,0.482456,-0.043116,0.501936,0.107042,-0.002899,0.055467,19.385740,19.762018,-19.718830,33.987888
